# wavelength    i
380.0    0.0
380.5    0.0
381.0    0.0
381.5    0.0
382.0    0.0
382.5    0.0
383.0    0.0
383.5    0.0
384.0    0.0
384.5    0.0
385.0    0.0
385.5    0.0
386.0    0.0
386.5    0.0
387.0    0.0
387.5    0.0
388.0    0.0
388.5    0.0
389.0    0.0
389.5    0.0
390.0    0.0
390.5    0.0
391.0    0.0
391.5    0.0
392.0    0.0
392.5    0.0
393.0    0.0
393.5    0.0
394.0    0.0
394.5    0.0
395.0    0.0
395.5    0.0
396.0    0.0
396.5    0.0
397.0    0.0
397.5    0.0
398.0    0.0
398.5    0.0
399.0    0.0
399.5    0.0
400.0    0.0
400.5    0.0
401.0    0.0
401.5    0.0
402.0    0.0
402.5    0.0
403.0    0.0
403.5    0.0
404.0    0.0
404.5    0.0
405.0    0.0
405.5    0.0
406.0    0.0
406.5    0.0
407.0    0.0
407.5    0.0
408.0    0.0
408.5    0.0
409.0    0.0
409.5    0.0
410.0    0.0
410.5    0.0
411.0    0.0
411.5    0.0
412.0    0.0
412.5    0.0
413.0    0.0
413.5    0.0
414.0    0.0
414.5    0.0
415.0    0.0
415.5    0.0
416.0    0.0
416.5    0.0
417.0    0.0
417.5    0.0
418.0    0.0
418.5    0.0
419.0    0.0
419.5    0.0
420.0    0.0
420.5    0.0
421.0    0.0
421.5    0.0
422.0    0.0
422.5    0.0
423.0    0.0
423.5    0.0
424.0    0.0
424.5    0.0
425.0    0.0
425.5    0.0
426.0    0.0
426.5    0.0
427.0    0.0
427.5    0.0
428.0    0.0
428.5    0.0
429.0    0.0
429.5    0.0
430.0    0.0
430.5    0.0
431.0    0.0
431.5    0.0
432.0    0.0
432.5    0.0
433.0    0.0
433.5    0.0
434.0    0.0
434.5    0.0
435.0    0.0
435.5    0.0
436.0    0.0
436.5    0.0
437.0    0.0
437.5    0.0
438.0    0.0
438.5    0.0
439.0    0.0
439.5    0.0
440.0    0.0
440.5    0.0
441.0    0.0
441.5    0.0
442.0    0.0
442.5    0.0
443.0    0.0
443.5    0.0
444.0    0.0
444.5    0.0
445.0    0.0
445.5    0.0
446.0    0.0
446.5    0.0
447.0    0.0
447.5    0.0
448.0    0.0
448.5    0.0
449.0    0.0
449.5    0.0
450.0    0.0
450.5    0.0
451.0    0.0
451.5    0.0
452.0    0.0
452.5    0.0
453.0    0.0
453.5    0.0
454.0    0.0
454.5    0.0
455.0    0.0
455.5    0.0
456.0    0.0
456.5    0.0
457.0    0.0
457.5    0.0
458.0    0.0
458.5    0.0
459.0    0.0
459.5    0.0
460.0    0.0
460.5    0.0
461.0    0.0
461.5    0.0
462.0    0.0
462.5    0.0
463.0    0.0
463.5    0.0
464.0    0.0
464.5    0.0
465.0    0.0
465.5    0.0
466.0    0.0
466.5    0.0
467.0    0.0
467.5    0.0
468.0    0.0
468.5    0.0
469.0    0.0
469.5    0.0
470.0    0.0
470.5    0.0
471.0    0.0
471.5    0.0
472.0    0.0
472.5    0.0
473.0    0.0
473.5    0.0
474.0    0.0
474.5    0.0
475.0    0.0
475.5    0.0
476.0    0.0
476.5    0.0
477.0    0.0
477.5    0.0
478.0    0.0
478.5    0.0
479.0    0.0
479.5    0.0
480.0    0.0
480.5    0.0
481.0    0.0
481.5    0.0
482.0    0.0
482.5    0.0
483.0    0.0
483.5    0.0
484.0    0.0
484.5    0.0
485.0    0.0
485.5    0.0
486.0    0.0
486.5    0.0
487.0    0.0
487.5    0.0
488.0    0.0
488.5    0.0
489.0    0.0
489.5    0.0
490.0    0.0
490.5    0.0
491.0    0.0
491.5    0.0
492.0    0.0
492.5    0.0
493.0    0.0
493.5    0.0
494.0    0.0
494.5    0.0
495.0    0.0
495.5    0.0
496.0    0.0
496.5    0.0
497.0    0.0
497.5    0.0
498.0    0.0
498.5    0.0
499.0    0.0
499.5    0.0
500.0    0.0
500.5    0.0
501.0    0.0
501.5    0.0
502.0    0.0
502.5    0.0
503.0    0.0
503.5    0.0
504.0    0.0
504.5    0.0
505.0    0.0
505.5    0.0
506.0    0.0
506.5    0.0
507.0    0.0
507.5    0.0
508.0    0.0
508.5    0.0
509.0    0.0
509.5    0.0
510.0    0.0
510.5    0.0
511.0    0.0
511.5    0.0
512.0    0.0
512.5    0.0
513.0    0.0
513.5    0.0
514.0    0.0
514.5    0.0
515.0    0.0
515.5    0.0
516.0    0.0
516.5    0.0
517.0    0.0
517.5    0.0
518.0    0.0
518.5    0.0
519.0    0.0
519.5    0.0
520.0    0.0
520.5    0.0
521.0    0.0
521.5    0.0
522.0    0.0
522.5    0.0
523.0    0.0
523.5    0.0
524.0    0.0
524.5    0.0
525.0    0.0
525.5    0.0
526.0    0.0
526.5    0.0
527.0    0.0
527.5    0.0
528.0    0.0
528.5    0.0
529.0    0.0
529.5    0.0
530.0    0.0
530.5    0.0
531.0    0.0
531.5    0.0
532.0    0.0
532.5    0.0
533.0    0.0
533.5    0.0
534.0    0.0
534.5    0.0
535.0    0.0
535.5    0.0
536.0    0.0
536.5    0.0
537.0    0.0
537.5    0.0
538.0    0.0
538.5    0.0
539.0    0.0
539.5    0.0
540.0    0.0
540.5    0.0
541.0    0.0
541.5    0.0
542.0    0.0
542.5    0.0
543.0    0.0
543.5    0.0
544.0    0.0
544.5    0.0
545.0    0.0
545.5    0.0
546.0    0.0
546.5    0.0
547.0    0.0
547.5    0.0
548.0    0.0
548.5    0.0
549.0    0.0
549.5    0.0
550.0    0.0
550.5    0.0
551.0    0.0
551.5    0.0
552.0    0.0
552.5    0.0
553.0    0.0
553.5    0.0
554.0    0.0
554.5    0.0
555.0    0.0
555.5    0.0
556.0    0.0
556.5    0.0
557.0    0.0
557.5    0.0
558.0    0.0
558.5    0.0
559.0    0.0
559.5    0.0
560.0    0.0
560.5    0.0
561.0    0.0
561.5    0.0
562.0    0.0
562.5    0.0
563.0    0.0
563.5    0.0
564.0    0.0
564.5    0.0
565.0    0.0
565.5    0.0
566.0    0.0
566.5    0.0
567.0    0.0
567.5    0.0
568.0    0.0
568.5    0.0
569.0    0.0
569.5    0.0
570.0    0.0
570.5    0.0
571.0    0.0
571.5    0.0
572.0    0.0
572.5    0.0
573.0    0.0
573.5    0.0
574.0    0.0
574.5    0.0
575.0    0.0
575.5    0.0
576.0    0.0
576.5    0.0
577.0    0.0
577.5    0.0
578.0    0.0
578.5    0.0
579.0    0.0
579.5    0.0
580.0    0.0
580.5    0.0
581.0    0.0
581.5    0.0
582.0    0.0
582.5    0.0
583.0    0.0
583.5    0.0
584.0    0.0
584.5    0.0
585.0    0.0
585.5    0.0
586.0    0.0
586.5    0.0
587.0    0.0
587.5    0.0
588.0    0.0
588.5    0.0
589.0    0.0
589.5    0.0
590.0    0.0
590.5    0.0
591.0    0.0
591.5    0.0
592.0    0.0
592.5    0.0
593.0    0.0
593.5    0.0
594.0    0.0
594.5    0.0
595.0    0.0
595.5    0.0
596.0    0.0
596.5    0.0
597.0    0.0
597.5    0.0
598.0    0.0
598.5    0.0
599.0    0.0
599.5    0.0
600.0    0.0
600.5    0.0
601.0    0.0
601.5    0.0
602.0    0.0
602.5    0.0
603.0    0.0
603.5    0.0
604.0    0.0
604.5    0.0
605.0    0.0
605.5    0.0
606.0    0.0
606.5    0.0
607.0    0.0
607.5    0.0
608.0    0.0
608.5    0.0
609.0    0.0
609.5    0.0
610.0    0.0
610.5    0.0
611.0    0.0
611.5    0.0
612.0    0.0
612.5    0.0
613.0    0.0
613.5    0.0
614.0    0.0
614.5    0.0
615.0    0.0
615.5    0.0
616.0    0.0
616.5    0.0
617.0    0.0
617.5    0.0
618.0    0.0
618.5    0.0
619.0    0.0
619.5    0.0
620.0    0.0
620.5    0.0
621.0    0.0
621.5    0.0
622.0    0.0
622.5    0.0
623.0    0.0
623.5    0.0
624.0    0.0
624.5    0.0
625.0    0.0
625.5    0.0
626.0    0.0
626.5    0.0
627.0    0.0
627.5    0.0
628.0    0.0
628.5    0.0
629.0    0.0
629.5    0.0
630.0    0.0
630.5    0.0
631.0    0.0
631.5    0.0
632.0    0.0
632.5    0.0
633.0    0.0
633.5    0.0
634.0    0.0
634.5    0.0
635.0    0.0
635.5    0.0
636.0    0.0
636.5    0.0
637.0    0.0
637.5    0.0
638.0    0.0
638.5    0.0
639.0    0.0
639.5    0.0
640.0    0.0
640.5    0.0
641.0    0.0
641.5    0.0
642.0    0.0
642.5    0.0
643.0    0.0
643.5    0.0
644.0    0.0
644.5    0.0
645.0    0.0
645.5    0.0
646.0    0.0
646.5    0.0
647.0    0.0
647.5    0.0
648.0    0.0
648.5    0.0
649.0    0.0
649.5    7e-05
650.0    0.00014
650.5    0.00013
651.0    0.00012
651.5    0.00011
652.0    0.0001
652.5    0.00013
653.0    0.00015
653.5    0.00017
654.0    0.00019
654.5    0.0002
655.0    0.0002
655.5    0.00021
656.0    0.00022
656.5    0.00025
657.0    0.00027
657.5    0.0003
658.0    0.00033
658.5    0.00032
659.0    0.00032
659.5    0.00031
660.0    0.0003
660.5    0.00031
661.0    0.00031
661.5    0.00032
662.0    0.00032
662.5    0.00032
663.0    0.00031
663.5    0.00031
664.0    0.0003
664.5    0.00031
665.0    0.00032
665.5    0.00033
666.0    0.00033
666.5    0.00038
667.0    0.00043
667.5    0.00048
668.0    0.00052
668.5    0.00052
669.0    0.00052
669.5    0.00049
670.0    0.00047
670.5    0.00049
671.0    0.00051
671.5    0.00053
672.0    0.00055
672.5    0.0006
673.0    0.00064
673.5    0.00068
674.0    0.00072
674.5    0.00074
675.0    0.00076
675.5    0.00078
676.0    0.00079
676.5    0.00085
677.0    0.00091
677.5    0.00098
678.0    0.00104
678.5    0.0011
679.0    0.00116
679.5    0.00122
680.0    0.00128
680.5    0.00135
681.0    0.00143
681.5    0.00151
682.0    0.00159
682.5    0.00169
683.0    0.00179
683.5    0.00189
684.0    0.00199
684.5    0.00212
685.0    0.00226
685.5    0.0024
686.0    0.00252
686.5    0.00256
687.0    0.00237
687.5    0.00233
688.0    0.00269
688.5    0.00308
689.0    0.00323
689.5    0.00342
690.0    0.00371
690.5    0.00408
691.0    0.00447
691.5    0.00485
692.0    0.00523
692.5    0.00586
693.0    0.00649
693.5    0.00709
694.0    0.00767
694.5    0.00886
695.0    0.01007
695.5    0.01126
696.0    0.01244
696.5    0.01533
697.0    0.01827
697.5    0.02116
698.0    0.024
698.5    0.03067
699.0    0.03727
699.5    0.04398
700.0    0.05079
700.5    0.06447
701.0    0.07812
701.5    0.09183
702.0    0.10555
702.5    0.12855
703.0    0.15174
703.5    0.17536
704.0    0.19842
704.5    0.23097
705.0    0.26352
705.5    0.29593
706.0    0.32869
706.5    0.36658
707.0    0.40455
707.5    0.44228
708.0    0.48002
708.5    0.5167
709.0    0.55327
709.5    0.58971
710.0    0.62584
710.5    0.65608
711.0    0.68653
711.5    0.71701
712.0    0.74738
712.5    0.76824
713.0    0.78886
713.5    0.80987
714.0    0.83081
714.5    0.84181
715.0    0.85254
715.5    0.86377
716.0    0.87393
716.5    0.87273
717.0    0.86327
717.5    0.85399
718.0    0.85202
718.5    0.84091
719.0    0.83438
719.5    0.83722
720.0    0.83988
720.5    0.84741
721.0    0.86688
721.5    0.88573
722.0    0.89164
722.5    0.89013
723.0    0.87865
723.5    0.86061
724.0    0.85934
724.5    0.86241
725.0    0.86832
725.5    0.87343
726.0    0.88157
726.5    0.88321
727.0    0.88411
727.5    0.8802
728.0    0.88136
728.5    0.89426
729.0    0.89364
729.5    0.89628
730.0    0.90291
730.5    0.89962
731.0    0.8994
731.5    0.90103
732.0    0.90515
732.5    0.91189
733.0    0.91389
733.5    0.91275
734.0    0.91364
734.5    0.91386
735.0    0.91288
735.5    0.91274
736.0    0.91158
736.5    0.91217
737.0    0.91367
737.5    0.91657
738.0    0.91891
738.5    0.9208
739.0    0.92306
739.5    0.92514
740.0    0.9274
740.5    0.9296
741.0    0.93115
741.5    0.93252
742.0    0.93407
742.5    0.93428
743.0    0.93487
743.5    0.93565
744.0    0.93596
744.5    0.93551
745.0    0.93535
745.5    0.93499
746.0    0.93482
746.5    0.93469
747.0    0.93447
747.5    0.93414
748.0    0.93392
748.5    0.93437
749.0    0.93472
749.5    0.93517
750.0    0.93553
750.5    0.93581
751.0    0.93637
751.5    0.93684
752.0    0.93721
752.5    0.93758
753.0    0.93795
753.5    0.93822
754.0    0.93849
754.5    0.93799
755.0    0.93757
755.5    0.93716
756.0    0.93656
756.5    0.93577
757.0    0.93488
757.5    0.93399
758.0    0.93292
758.5    0.92458
759.0    0.87577
759.5    0.69387
760.0    0.43592
760.5    0.30247
761.0    0.31846
761.5    0.45553
762.0    0.59922
762.5    0.57903
763.0    0.50073
763.5    0.50198
764.0    0.54583
764.5    0.59945
765.0    0.66282
765.5    0.7203
766.0    0.76678
766.5    0.80615
767.0    0.8479
767.5    0.87574
768.0    0.89168
768.5    0.90152
769.0    0.90828
769.5    0.91467
770.0    0.92255
770.5    0.92826
771.0    0.93089
771.5    0.93213
772.0    0.93299
772.5    0.93377
773.0    0.93436
773.5    0.93513
774.0    0.93582
774.5    0.93769
775.0    0.93928
775.5    0.94106
776.0    0.94255
776.5    0.94341
777.0    0.94408
777.5    0.94484
778.0    0.94542
778.5    0.94565
779.0    0.94589
779.5    0.94603
780.0    0.94636
780.5    0.94585
781.0    0.94544
781.5    0.94502
782.0    0.94461
782.5    0.94416
783.0    0.94372
783.5    0.94328
784.0    0.94293
784.5    0.9431
785.0    0.94317
785.5    0.94334
786.0    0.94341
786.5    0.94287
787.0    0.94242
787.5    0.94245
788.0    0.9421
788.5    0.94053
789.0    0.93802
789.5    0.93561
790.0    0.93423
790.5    0.93268
791.0    0.93122
791.5    0.93032
792.0    0.92866
792.5    0.92531
793.0    0.92344
793.5    0.92398
794.0    0.92331
794.5    0.92085
795.0    0.91784
795.5    0.91429
796.0    0.90835
796.5    0.90649
797.0    0.90857
797.5    0.90963
798.0    0.90987
798.5    0.91158
799.0    0.91356
799.5    0.91564
800.0    0.91606
800.5    0.91731
801.0    0.91912
801.5    0.92194
802.0    0.92495
802.5    0.926
803.0    0.92704
803.5    0.92911
804.0    0.93081
804.5    0.93097
805.0    0.93234
805.5    0.93363
806.0    0.93369
806.5    0.93361
807.0    0.93382
807.5    0.93393
808.0    0.93395
808.5    0.9314
809.0    0.92894
809.5    0.92574
810.0    0.92394
810.5    0.92017
811.0    0.91409
811.5    0.91445
812.0    0.91545
812.5    0.91409
813.0    0.90792
813.5    0.89667
814.0    0.89208
814.5    0.89056
815.0    0.88366
815.5    0.87536
816.0    0.86715
816.5    0.8642
817.0    0.87828
817.5    0.8783
818.0    0.86442
818.5    0.87285
819.0    0.87899
819.5    0.87829
820.0    0.87675
820.5    0.89393
821.0    0.90654
821.5    0.9037
822.0    0.89252
822.5    0.85949
823.0    0.816
823.5    0.83352
824.0    0.87465
824.5    0.88949
825.0    0.89264
825.5    0.88976
826.0    0.88743
826.5    0.89799
827.0    0.90134
827.5    0.88519
828.0    0.87604
828.5    0.88457
829.0    0.88637
829.5    0.89122
830.0    0.90186
830.5    0.90873
831.0    0.92193
831.5    0.92258
832.0    0.91399
832.5    0.92088
833.0    0.9308
833.5    0.93033
834.0    0.9326
834.5    0.93716
835.0    0.93754
835.5    0.935
836.0    0.93379
836.5    0.93361
837.0    0.9338
837.5    0.93287
838.0    0.93183
838.5    0.93231
839.0    0.93222
839.5    0.93032
840.0    0.92795
840.5    0.92771
841.0    0.92746
841.5    0.92861
842.0    0.92948
842.5    0.93048
843.0    0.93073
843.5    0.933
844.0    0.93582
844.5    0.93653
845.0    0.93704
845.5    0.93756
846.0    0.93751
846.5    0.94124
847.0    0.94554
847.5    0.94937
848.0    0.95262
848.5    0.95498
849.0    0.95754
849.5    0.96028
850.0    0.96293
850.5    0.95534
851.0    0.94756
851.5    0.93987
852.0    0.93266
852.5    0.89956
853.0    0.86616
853.5    0.83249
854.0    0.79865
854.5    0.73196
855.0    0.66546
855.5    0.59886
856.0    0.53223
856.5    0.40074
857.0    0.26914
857.5    0.2702
858.0    0.27134
858.5    0.1895
859.0    0.10757
859.5    0.10735
860.0    0.10714
860.5    0.07299
861.0    0.03883
861.5    0.03892
862.0    0.03901
862.5    0.02657
863.0    0.01414
863.5    0.01432
864.0    0.0145
864.5    0.01021
865.0    0.00592
865.5    0.00583
866.0    0.00575
866.5    0.00423
867.0    0.00271
867.5    0.00247
868.0    0.00224
868.5    0.002
869.0    0.00177
869.5    0.00155
870.0    0.00132
870.5    0.00128
871.0    0.00123
871.5    0.00114
872.0    0.00105
872.5    0.00095
873.0    0.00086
873.5    0.00078
874.0    0.0007
874.5    0.00073
875.0    0.00076
875.5    0.0013
876.0    0.00183
876.5    0.00133
877.0    0.00083
877.5    0.00078
878.0    0.00073
878.5    0.00069
879.0    0.00064
879.5    0.00071
880.0    0.00077
880.5    0.00092
881.0    0.00107
881.5    0.00104
882.0    0.001
882.5    0.00097
883.0    0.00094
883.5    0.00091
884.0    0.00087
884.5    0.0007
885.0    0.00052
885.5    0.00059
886.0    0.00065
886.5    0.00072
887.0    0.00078
887.5    0.00078
888.0    0.00078
888.5    0.00078
889.0    0.00078
889.5    0.00078
890.0    0.00078
890.5    0.00065
891.0    0.00053
891.5    0.00053
892.0    0.00054
892.5    0.00054
893.0    0.00054
893.5    0.00054
894.0    0.00055
894.5    0.0006
895.0    0.00066
895.5    0.0007
896.0    0.00075
896.5    0.00074
897.0    0.00074
897.5    0.00075
898.0    0.00075
898.5    0.00083
899.0    0.00089
899.5    0.00101
900.0    0.00115
900.5    0.00057
901.0    0.0
901.5    0.0
902.0    0.0
902.5    0.0
903.0    0.0
903.5    0.0
904.0    0.0
904.5    0.0
905.0    0.0
905.5    0.0
906.0    0.0
906.5    0.0
907.0    0.0
907.5    0.0
908.0    0.0
908.5    0.0
909.0    0.0
909.5    0.0
910.0    0.0
910.5    0.0
911.0    0.0
911.5    0.0
912.0    0.0
912.5    0.0
913.0    0.0
913.5    0.0
914.0    0.0
914.5    0.0
915.0    0.0
915.5    0.0
916.0    0.0
916.5    0.0
917.0    0.0
917.5    0.0
918.0    0.0
918.5    0.0
919.0    0.0
919.5    0.0
920.0    0.0
920.5    0.0
921.0    0.0
921.5    0.0
922.0    0.0
922.5    0.0
923.0    0.0
923.5    0.0
924.0    0.0
924.5    0.0
925.0    0.0
925.5    0.0
926.0    0.0
926.5    0.0
927.0    0.0
927.5    0.0
928.0    0.0
928.5    0.0
929.0    0.0
929.5    0.0
930.0    0.0
930.5    0.0
931.0    0.0
931.5    0.0
932.0    0.0
932.5    0.0
933.0    0.0
933.5    0.0
934.0    0.0
934.5    0.0
935.0    0.0
935.5    0.0
936.0    0.0
936.5    0.0
937.0    0.0
937.5    0.0
938.0    0.0
938.5    0.0
939.0    0.0
939.5    0.0
940.0    0.0
940.5    0.0
941.0    0.0
941.5    0.0
942.0    0.0
942.5    0.0
943.0    0.0
943.5    0.0
944.0    0.0
944.5    0.0
945.0    0.0
945.5    0.0
946.0    0.0
946.5    0.0
947.0    0.0
947.5    0.0
948.0    0.0
948.5    0.0
949.0    0.0
949.5    0.0
950.0    0.0
950.5    0.0
951.0    0.0
951.5    0.0
952.0    0.0
952.5    0.0
953.0    0.0
953.5    0.0
954.0    0.0
954.5    0.0
955.0    0.0
955.5    0.0
956.0    0.0
956.5    0.0
957.0    0.0
957.5    0.0
958.0    0.0
958.5    0.0
959.0    0.0
959.5    0.0
960.0    0.0
960.5    0.0
961.0    0.0
961.5    0.0
962.0    0.0
962.5    0.0
963.0    0.0
963.5    0.0
964.0    0.0
964.5    0.0
965.0    0.0
965.5    0.0
966.0    0.0
966.5    0.0
967.0    0.0
967.5    0.0
968.0    0.0
968.5    0.0
969.0    0.0
969.5    0.0
970.0    0.0
970.5    0.0
971.0    0.0
971.5    0.0
972.0    0.0
972.5    0.0
973.0    0.0
973.5    0.0
974.0    0.0
974.5    0.0
975.0    0.0
975.5    0.0
976.0    0.0
976.5    0.0
977.0    0.0
977.5    0.0
978.0    0.0
978.5    0.0
979.0    0.0
979.5    0.0
980.0    0.0
980.5    0.0
981.0    0.0
981.5    0.0
982.0    0.0
982.5    0.0
983.0    0.0
983.5    0.0
984.0    0.0
984.5    0.0
985.0    0.0
985.5    0.0
986.0    0.0
986.5    0.0
987.0    0.0
987.5    0.0
988.0    0.0
988.5    0.0
989.0    0.0
989.5    0.0
990.0    0.0
990.5    0.0
991.0    0.0
991.5    0.0
992.0    0.0
992.5    0.0
993.0    0.0
993.5    0.0
994.0    0.0
994.5    0.0
995.0    0.0
995.5    0.0
996.0    0.0
996.5    0.0
997.0    0.0
997.5    0.0
998.0    0.0
998.5    0.0
999.0    0.0
999.5    0.0
1000.0    0.0
1000.5    0.0
1001.0    0.0
1001.5    0.0
1002.0    0.0
1002.5    0.0
1003.0    0.0
1003.5    0.0
1004.0    0.0
1004.5    0.0
1005.0    0.0
1005.5    0.0
1006.0    0.0
1006.5    0.0
1007.0    0.0
1007.5    0.0
1008.0    0.0
1008.5    0.0
1009.0    0.0
1009.5    0.0
1010.0    0.0
1010.5    0.0
1011.0    0.0
1011.5    0.0
1012.0    0.0
1012.5    0.0
1013.0    0.0
1013.5    0.0
1014.0    0.0
1014.5    0.0
1015.0    0.0
1015.5    0.0
1016.0    0.0
1016.5    0.0
1017.0    0.0
1017.5    0.0
1018.0    0.0
1018.5    0.0
1019.0    0.0
1019.5    0.0
1020.0    0.0
1020.5    0.0
1021.0    0.0
1021.5    0.0
1022.0    0.0
1022.5    0.0
1023.0    0.0
1023.5    0.0
1024.0    0.0
1024.5    0.0
1025.0    0.0
1025.5    0.0
1026.0    0.0
1026.5    0.0
1027.0    0.0
1027.5    0.0
1028.0    0.0
1028.5    0.0
1029.0    0.0
1029.5    0.0
1030.0    0.0
1030.5    0.0
1031.0    0.0
1031.5    0.0
1032.0    0.0
1032.5    0.0
1033.0    0.0
1033.5    0.0
1034.0    0.0
1034.5    0.0
1035.0    0.0
1035.5    0.0
1036.0    0.0
1036.5    0.0
1037.0    0.0
1037.5    0.0
1038.0    0.0
1038.5    0.0
1039.0    0.0
1039.5    0.0
1040.0    0.0
1040.5    0.0
1041.0    0.0
1041.5    0.0
1042.0    0.0
1042.5    0.0
1043.0    0.0
1043.5    0.0
1044.0    0.0
1044.5    0.0
1045.0    0.0
1045.5    0.0
1046.0    0.0
1046.5    0.0
1047.0    0.0
1047.5    0.0
1048.0    0.0
1048.5    0.0
1049.0    0.0
1049.5    0.0
1050.0    0.0
1050.5    0.0
1051.0    0.0
1051.5    0.0
1052.0    0.0
1052.5    0.0
1053.0    0.0
1053.5    0.0
1054.0    0.0
1054.5    0.0
1055.0    0.0
1055.5    0.0
1056.0    0.0
1056.5    0.0
1057.0    0.0
1057.5    0.0
1058.0    0.0
1058.5    0.0
1059.0    0.0
1059.5    0.0
1060.0    0.0
1060.5    0.0
1061.0    0.0
1061.5    0.0
1062.0    0.0
1062.5    0.0
1063.0    0.0
1063.5    0.0
1064.0    0.0
1064.5    0.0
1065.0    0.0
1065.5    0.0
1066.0    0.0
1066.5    0.0
1067.0    0.0
1067.5    0.0
1068.0    0.0
1068.5    0.0
1069.0    0.0
1069.5    0.0
1070.0    0.0
1070.5    0.0
1071.0    0.0
1071.5    0.0
1072.0    0.0
1072.5    0.0
1073.0    0.0
1073.5    0.0
1074.0    0.0
1074.5    0.0
1075.0    0.0
1075.5    0.0
1076.0    0.0
1076.5    0.0
1077.0    0.0
1077.5    0.0
1078.0    0.0
1078.5    0.0
1079.0    0.0
1079.5    0.0
1080.0    0.0
1080.5    0.0
1081.0    0.0
1081.5    0.0
1082.0    0.0
1082.5    0.0
1083.0    0.0
1083.5    0.0
1084.0    0.0
1084.5    0.0
1085.0    0.0
1085.5    0.0
1086.0    0.0
1086.5    0.0
1087.0    0.0
1087.5    0.0
1088.0    0.0
1088.5    0.0
1089.0    0.0
1089.5    0.0
1090.0    0.0
1090.5    0.0
1091.0    0.0
1091.5    0.0
1092.0    0.0
1092.5    0.0
1093.0    0.0
1093.5    0.0
1094.0    0.0
1094.5    0.0
1095.0    0.0
1095.5    0.0
1096.0    0.0
1096.5    0.0
1097.0    0.0
1097.5    0.0
1098.0    0.0
1098.5    0.0
1099.0    0.0
1099.5    0.0
1100.0    0.0
