# wavelength    r
380.0    0.00031
380.5    0.00033
381.0    0.00034
381.5    0.00037
382.0    0.00039
382.5    0.00042
383.0    0.00044
383.5    0.00047
384.0    0.00049
384.5    0.00051
385.0    0.00054
385.5    0.00056
386.0    0.00059
386.5    0.00061
387.0    0.00064
387.5    0.00066
388.0    0.00069
388.5    0.00071
389.0    0.00074
389.5    0.00077
390.0    0.00079
390.5    0.00082
391.0    0.00084
391.5    0.0009
392.0    0.00096
392.5    0.00101
393.0    0.00107
393.5    0.00112
394.0    0.00118
394.5    0.00124
395.0    0.0013
395.5    0.00135
396.0    0.00141
396.5    0.00147
397.0    0.00153
397.5    0.00159
398.0    0.00164
398.5    0.0017
399.0    0.00176
399.5    0.00182
400.0    0.00188
400.5    0.0018
401.0    0.00172
401.5    0.00164
402.0    0.00156
402.5    0.00148
403.0    0.0014
403.5    0.00132
404.0    0.00124
404.5    0.00116
405.0    0.00108
405.5    0.00099
406.0    0.00091
406.5    0.00083
407.0    0.00075
407.5    0.00066
408.0    0.00058
408.5    0.00049
409.0    0.00041
409.5    0.00033
410.0    0.00024
410.5    0.00016
411.0    7e-05
411.5    7e-05
412.0    8e-05
412.5    8e-05
413.0    8e-05
413.5    8e-05
414.0    8e-05
414.5    8e-05
415.0    9e-05
415.5    9e-05
416.0    9e-05
416.5    9e-05
417.0    9e-05
417.5    9e-05
418.0    0.0001
418.5    0.0001
419.0    0.0001
419.5    0.0001
420.0    0.0001
420.5    0.00011
421.0    0.00011
421.5    0.0001
422.0    0.0001
422.5    9e-05
423.0    8e-05
423.5    8e-05
424.0    7e-05
424.5    7e-05
425.0    6e-05
425.5    5e-05
426.0    5e-05
426.5    4e-05
427.0    4e-05
427.5    3e-05
428.0    2e-05
428.5    2e-05
429.0    1e-05
429.5    1e-05
430.0    0.0
430.5    8e-05
431.0    0.00017
431.5    0.00026
432.0    0.00034
432.5    0.00043
433.0    0.00051
433.5    0.0006
434.0    0.00068
434.5    0.00077
435.0    0.00086
435.5    0.00094
436.0    0.00103
436.5    0.00112
437.0    0.00121
437.5    0.0013
438.0    0.00138
438.5    0.00147
439.0    0.00156
439.5    0.00165
440.0    0.00174
440.5    0.0017
441.0    0.00166
441.5    0.00162
442.0    0.00158
442.5    0.00155
443.0    0.00151
443.5    0.00147
444.0    0.00143
444.5    0.00139
445.0    0.00135
445.5    0.00131
446.0    0.00127
446.5    0.00123
447.0    0.0012
447.5    0.00116
448.0    0.00112
448.5    0.00108
449.0    0.00104
449.5    0.001
450.0    0.00096
450.5    0.00091
451.0    0.00086
451.5    0.00082
452.0    0.00077
452.5    0.00072
453.0    0.00067
453.5    0.00063
454.0    0.00058
454.5    0.00053
455.0    0.00048
455.5    0.00044
456.0    0.00039
456.5    0.00034
457.0    0.00029
457.5    0.00024
458.0    0.00019
458.5    0.00015
459.0    0.0001
459.5    5e-05
460.0    0.0
460.5    3e-05
461.0    6e-05
461.5    9e-05
462.0    0.00013
462.5    0.00016
463.0    0.00019
463.5    0.00022
464.0    0.00025
464.5    0.00028
465.0    0.00032
465.5    0.00035
466.0    0.00038
466.5    0.00041
467.0    0.00044
467.5    0.00048
468.0    0.00051
468.5    0.00054
469.0    0.00057
469.5    0.00061
470.0    0.00064
470.5    0.00061
471.0    0.00057
471.5    0.00054
472.0    0.00051
472.5    0.00048
473.0    0.00045
473.5    0.00042
474.0    0.00038
474.5    0.00035
475.0    0.00032
475.5    0.00029
476.0    0.00026
476.5    0.00023
477.0    0.00019
477.5    0.00016
478.0    0.00013
478.5    0.0001
479.0    6e-05
479.5    3e-05
480.0    0.0
480.5    0.0
481.0    0.0
481.5    0.0
482.0    0.0
482.5    0.0
483.0    0.0
483.5    0.0
484.0    0.0
484.5    0.0
485.0    0.0
485.5    0.0
486.0    0.0
486.5    0.0
487.0    0.0
487.5    0.0
488.0    0.0
488.5    0.0
489.0    0.0
489.5    0.0
490.0    0.0
490.5    0.0
491.0    1e-05
491.5    1e-05
492.0    2e-05
492.5    2e-05
493.0    3e-05
493.5    3e-05
494.0    4e-05
494.5    4e-05
495.0    5e-05
495.5    5e-05
496.0    6e-05
496.5    6e-05
497.0    7e-05
497.5    7e-05
498.0    8e-05
498.5    8e-05
499.0    9e-05
499.5    9e-05
500.0    0.0001
500.5    0.00012
501.0    0.00015
501.5    0.00017
502.0    0.0002
502.5    0.0002
503.0    0.00021
503.5    0.00022
504.0    0.00022
504.5    0.00023
505.0    0.00023
505.5    0.00024
506.0    0.00024
506.5    0.00024
507.0    0.00024
507.5    0.00024
508.0    0.00024
508.5    0.00022
509.0    0.00019
509.5    0.00017
510.0    0.00015
510.5    0.00019
511.0    0.00022
511.5    0.00025
512.0    0.00029
512.5    0.0003
513.0    0.0003
513.5    0.00031
514.0    0.00031
514.5    0.00031
515.0    0.0003
515.5    0.0003
516.0    0.00029
516.5    0.0003
517.0    0.00031
517.5    0.00032
518.0    0.00033
518.5    0.00029
519.0    0.00025
519.5    0.00021
520.0    0.00017
520.5    0.00023
521.0    0.0003
521.5    0.00036
522.0    0.00043
522.5    0.00044
523.0    0.00045
523.5    0.00047
524.0    0.00048
524.5    0.0005
525.0    0.00053
525.5    0.00055
526.0    0.00058
526.5    0.0006
527.0    0.00063
527.5    0.00065
528.0    0.00068
528.5    0.00062
529.0    0.00055
529.5    0.00057
530.0    0.00059
530.5    0.00065
531.0    0.00071
531.5    0.00077
532.0    0.00083
532.5    0.00089
533.0    0.00095
533.5    0.001
534.0    0.00106
534.5    0.00112
535.0    0.00119
535.5    0.00125
536.0    0.00131
536.5    0.00139
537.0    0.00147
537.5    0.00154
538.0    0.00162
538.5    0.00173
539.0    0.00184
539.5    0.00193
540.0    0.00202
540.5    0.00216
541.0    0.00229
541.5    0.00243
542.0    0.00257
542.5    0.00276
543.0    0.00296
543.5    0.00315
544.0    0.00335
544.5    0.00359
545.0    0.00383
545.5    0.00407
546.0    0.00431
546.5    0.00455
547.0    0.00481
547.5    0.00505
548.0    0.0053
548.5    0.00567
549.0    0.00603
549.5    0.0064
550.0    0.00676
550.5    0.00718
551.0    0.00761
551.5    0.00803
552.0    0.00846
552.5    0.00897
553.0    0.00948
553.5    0.01
554.0    0.01051
554.5    0.01121
555.0    0.01191
555.5    0.01261
556.0    0.01331
556.5    0.01425
557.0    0.01518
557.5    0.01612
558.0    0.01705
558.5    0.01854
559.0    0.02004
559.5    0.02154
560.0    0.02303
560.5    0.02669
561.0    0.03035
561.5    0.03402
562.0    0.03768
562.5    0.05119
563.0    0.06472
563.5    0.07822
564.0    0.09173
564.5    0.13556
565.0    0.17941
565.5    0.22328
566.0    0.26716
566.5    0.33516
567.0    0.40315
567.5    0.471
568.0    0.53876
568.5    0.57048
569.0    0.6023
569.5    0.63428
570.0    0.66641
570.5    0.67155
571.0    0.67676
571.5    0.68156
572.0    0.68624
572.5    0.68801
573.0    0.68986
573.5    0.69177
574.0    0.69362
574.5    0.69538
575.0    0.69735
575.5    0.69947
576.0    0.70152
576.5    0.7031
577.0    0.70461
577.5    0.7062
578.0    0.70793
578.5    0.70921
579.0    0.71041
579.5    0.71168
580.0    0.71289
580.5    0.71518
581.0    0.71755
581.5    0.71992
582.0    0.72215
582.5    0.72318
583.0    0.72413
583.5    0.72523
584.0    0.72611
584.5    0.72583
585.0    0.72571
585.5    0.72543
586.0    0.725
586.5    0.72406
587.0    0.72319
587.5    0.72188
588.0    0.72007
588.5    0.71857
589.0    0.71728
589.5    0.71737
590.0    0.71761
590.5    0.72025
591.0    0.72289
591.5    0.72393
592.0    0.72446
592.5    0.72575
593.0    0.72843
593.5    0.73001
594.0    0.72955
594.5    0.72718
595.0    0.72798
595.5    0.72987
596.0    0.73036
596.5    0.73076
597.0    0.73065
597.5    0.73112
598.0    0.73188
598.5    0.73346
599.0    0.73444
599.5    0.73572
600.0    0.73693
600.5    0.73819
601.0    0.73946
601.5    0.74057
602.0    0.74184
602.5    0.742
603.0    0.74223
603.5    0.74403
604.0    0.7459
604.5    0.74642
605.0    0.74687
605.5    0.7474
606.0    0.748
606.5    0.74794
607.0    0.74796
607.5    0.74806
608.0    0.74808
608.5    0.74878
609.0    0.74955
609.5    0.75017
610.0    0.75094
610.5    0.75287
611.0    0.75465
611.5    0.75658
612.0    0.75836
612.5    0.76004
613.0    0.76172
613.5    0.76348
614.0    0.76517
614.5    0.76608
615.0    0.76692
615.5    0.76784
616.0    0.76876
616.5    0.76982
617.0    0.77079
617.5    0.77177
618.0    0.77283
618.5    0.77318
619.0    0.7736
619.5    0.77395
620.0    0.77413
620.5    0.77466
621.0    0.77519
621.5    0.7758
622.0    0.77624
622.5    0.77702
623.0    0.77771
623.5    0.77849
624.0    0.77919
624.5    0.77968
625.0    0.78026
625.5    0.78076
626.0    0.78118
626.5    0.7817
627.0    0.78127
627.5    0.77371
628.0    0.76176
628.5    0.76674
629.0    0.77518
629.5    0.77602
630.0    0.7778
630.5    0.7813
631.0    0.78418
631.5    0.78658
632.0    0.7886
632.5    0.79001
633.0    0.79103
633.5    0.7919
634.0    0.79245
634.5    0.79366
635.0    0.79487
635.5    0.79625
636.0    0.79738
636.5    0.79878
637.0    0.79986
637.5    0.80126
638.0    0.80259
638.5    0.80309
639.0    0.80343
639.5    0.80394
640.0    0.80428
640.5    0.80491
641.0    0.80554
641.5    0.80618
642.0    0.80673
642.5    0.80697
643.0    0.8073
643.5    0.80746
644.0    0.80771
644.5    0.80779
645.0    0.80787
645.5    0.8077
646.0    0.80721
646.5    0.8069
647.0    0.80618
647.5    0.8053
648.0    0.80564
648.5    0.80667
649.0    0.80761
649.5    0.80832
650.0    0.81008
650.5    0.8116
651.0    0.81142
651.5    0.8092
652.0    0.8087
652.5    0.81205
653.0    0.81452
653.5    0.81551
654.0    0.81668
654.5    0.8172
655.0    0.81789
655.5    0.81923
656.0    0.82091
656.5    0.82204
657.0    0.82301
657.5    0.82356
658.0    0.82469
658.5    0.8254
659.0    0.8261
659.5    0.82689
660.0    0.82718
660.5    0.8274
661.0    0.8277
661.5    0.82799
662.0    0.82813
662.5    0.82788
663.0    0.82747
663.5    0.82739
664.0    0.82706
664.5    0.82737
665.0    0.82767
665.5    0.82807
666.0    0.82838
666.5    0.82963
667.0    0.83088
667.5    0.83213
668.0    0.8333
668.5    0.83454
669.0    0.83561
669.5    0.83677
670.0    0.83792
670.5    0.83838
671.0    0.83892
671.5    0.83955
672.0    0.84
672.5    0.84007
673.0    0.84006
673.5    0.84013
674.0    0.84012
674.5    0.84003
675.0    0.83986
675.5    0.83951
676.0    0.83934
676.5    0.83947
677.0    0.83961
677.5    0.83991
678.0    0.84005
678.5    0.84068
679.0    0.84131
679.5    0.84212
680.0    0.84275
680.5    0.84296
681.0    0.84334
681.5    0.84372
682.0    0.8441
682.5    0.84444
683.0    0.84478
683.5    0.84511
684.0    0.84528
684.5    0.84549
685.0    0.8457
685.5    0.84574
686.0    0.84104
686.5    0.79778
687.0    0.69107
687.5    0.64095
688.0    0.69818
688.5    0.74569
689.0    0.73296
689.5    0.73242
690.0    0.74999
690.5    0.76382
691.0    0.77993
691.5    0.79231
692.0    0.80301
692.5    0.81406
693.0    0.82242
693.5    0.82588
694.0    0.82664
694.5    0.82835
695.0    0.83125
695.5    0.83291
696.0    0.83262
696.5    0.83642
697.0    0.84098
697.5    0.8419
698.0    0.84114
698.5    0.83894
699.0    0.83581
699.5    0.83588
700.0    0.83757
700.5    0.83797
701.0    0.83796
701.5    0.83853
702.0    0.83911
702.5    0.83794
703.0    0.83778
703.5    0.83938
704.0    0.83795
704.5    0.83637
705.0    0.8347
705.5    0.83262
706.0    0.83145
706.5    0.82794
707.0    0.82442
707.5    0.82031
708.0    0.81621
708.5    0.81038
709.0    0.8043
709.5    0.79797
710.0    0.79124
710.5    0.78551
711.0    0.78001
711.5    0.77451
712.0    0.76885
712.5    0.73831
713.0    0.70756
713.5    0.67717
714.0    0.64671
714.5    0.5758
715.0    0.50483
715.5    0.43426
716.0    0.3633
716.5    0.30435
717.0    0.24391
717.5    0.18542
718.0    0.12988
718.5    0.10622
719.0    0.08363
719.5    0.0621
720.0    0.04046
720.5    0.0336
721.0    0.02699
721.5    0.02003
722.0    0.01256
722.5    0.01114
723.0    0.00961
723.5    0.00806
724.0    0.00671
724.5    0.00568
725.0    0.00466
725.5    0.00363
726.0    0.0026
726.5    0.00225
727.0    0.00191
727.5    0.00155
728.0    0.00121
728.5    0.0011
729.0    0.00096
729.5    0.00083
730.0    0.00071
730.5    0.00066
731.0    0.00061
731.5    0.00056
732.0    0.00052
732.5    0.00049
733.0    0.00046
733.5    0.00043
734.0    0.0004
734.5    0.00038
735.0    0.00037
735.5    0.00035
736.0    0.00034
736.5    0.00033
737.0    0.00032
737.5    0.00032
738.0    0.00031
738.5    0.00029
739.0    0.00028
739.5    0.00026
740.0    0.00025
740.5    0.00026
741.0    0.00028
741.5    0.0003
742.0    0.00031
742.5    0.00029
743.0    0.00027
743.5    0.00024
744.0    0.00022
744.5    0.00024
745.0    0.00025
745.5    0.00027
746.0    0.00029
746.5    0.00027
747.0    0.00025
747.5    0.00022
748.0    0.0002
748.5    0.00019
749.0    0.00017
749.5    0.00015
750.0    0.00014
750.5    0.00017
751.0    0.00021
751.5    0.00024
752.0    0.00028
752.5    0.00027
753.0    0.00026
753.5    0.00025
754.0    0.00024
754.5    0.00021
755.0    0.00017
755.5    0.00014
756.0    0.00011
756.5    0.00014
757.0    0.00017
757.5    0.00021
758.0    0.00024
758.5    0.0002
759.0    0.00016
759.5    0.0001
760.0    5e-05
760.5    4e-05
761.0    4e-05
761.5    6e-05
762.0    9e-05
762.5    0.00039
763.0    0.0006
763.5    0.00087
764.0    0.00124
764.5    0.00103
765.0    0.00077
765.5    0.00044
766.0    5e-05
766.5    6e-05
767.0    7e-05
767.5    8e-05
768.0    9e-05
768.5    9e-05
769.0    0.0001
769.5    0.0001
770.0    0.00011
770.5    0.00017
771.0    0.00023
771.5    0.0003
772.0    0.00036
772.5    0.00042
773.0    0.00049
773.5    0.00055
774.0    0.00061
774.5    0.00068
775.0    0.00074
775.5    0.00081
776.0    0.00087
776.5    0.00093
777.0    0.001
777.5    0.00106
778.0    0.00112
778.5    0.00119
779.0    0.00125
779.5    0.00131
780.0    0.00138
780.5    0.00138
781.0    0.00139
781.5    0.00139
782.0    0.0014
782.5    0.00141
783.0    0.00141
783.5    0.00142
784.0    0.00142
784.5    0.00143
785.0    0.00143
785.5    0.00144
786.0    0.00145
786.5    0.00145
787.0    0.00146
787.5    0.00146
788.0    0.00147
788.5    0.00147
789.0    0.00148
789.5    0.00148
790.0    0.00148
790.5    0.00149
791.0    0.0015
791.5    0.0015
792.0    0.00151
792.5    0.00151
793.0    0.00152
793.5    0.00153
794.0    0.00154
794.5    0.00155
795.0    0.00155
795.5    0.00155
796.0    0.00155
796.5    0.00156
797.0    0.00157
797.5    0.00158
798.0    0.00158
798.5    0.00159
799.0    0.0016
799.5    0.0016
800.0    0.00161
800.5    0.00222
801.0    0.00283
801.5    0.00344
802.0    0.00406
802.5    0.00467
803.0    0.00528
803.5    0.0059
804.0    0.00651
804.5    0.00713
805.0    0.00775
805.5    0.00838
806.0    0.009
806.5    0.00961
807.0    0.01023
807.5    0.01084
808.0    0.01146
808.5    0.01207
809.0    0.01267
809.5    0.01327
810.0    0.01389
810.5    0.01352
811.0    0.01312
811.5    0.01271
812.0    0.01231
812.5    0.01192
813.0    0.01147
813.5    0.01096
814.0    0.01054
814.5    0.01015
815.0    0.0097
815.5    0.00924
816.0    0.00879
816.5    0.00838
817.0    0.00813
817.5    0.00778
818.0    0.00731
818.5    0.00704
819.0    0.00675
819.5    0.00646
820.0    0.00616
820.5    0.00599
821.0    0.00578
821.5    0.00547
822.0    0.00511
822.5    0.00463
823.0    0.00413
823.5    0.00394
824.0    0.00383
824.5    0.00359
825.0    0.0033
825.5    0.00298
826.0    0.00267
826.5    0.00239
827.0    0.00209
827.5    0.00174
828.0    0.00142
828.5    0.00113
829.0    0.00083
829.5    0.00053
830.0    0.00023
830.5    0.00022
831.0    0.00021
831.5    0.0002
832.0    0.00018
832.5    0.00017
833.0    0.00016
833.5    0.00014
834.0    0.00013
834.5    0.00012
835.0    0.00011
835.5    9e-05
836.0    8e-05
836.5    7e-05
837.0    5e-05
837.5    4e-05
838.0    3e-05
838.5    1e-05
839.0    0.0
839.5    3e-05
840.0    5e-05
840.5    8e-05
841.0    0.0001
841.5    0.00013
842.0    0.00015
842.5    0.00018
843.0    0.0002
843.5    0.00023
844.0    0.00025
844.5    0.00028
845.0    0.0003
845.5    0.00033
846.0    0.00036
846.5    0.00038
847.0    0.00041
847.5    0.00043
848.0    0.00046
848.5    0.00048
849.0    0.00051
849.5    0.00053
850.0    0.00056
850.5    0.00055
851.0    0.00054
851.5    0.00052
852.0    0.00051
852.5    0.0005
853.0    0.00049
853.5    0.00048
854.0    0.00047
854.5    0.00046
855.0    0.00045
855.5    0.00044
856.0    0.00043
856.5    0.00041
857.0    0.0004
857.5    0.00039
858.0    0.00038
858.5    0.00037
859.0    0.00036
859.5    0.00035
860.0    0.00034
860.5    0.00032
861.0    0.0003
861.5    0.00028
862.0    0.00026
862.5    0.00024
863.0    0.00023
863.5    0.00021
864.0    0.00019
864.5    0.00017
865.0    0.00015
865.5    0.00013
866.0    0.00011
866.5    9e-05
867.0    8e-05
867.5    6e-05
868.0    4e-05
868.5    2e-05
869.0    0.0
869.5    0.00019
870.0    0.00038
870.5    0.00056
871.0    0.00075
871.5    0.00094
872.0    0.00113
872.5    0.00132
873.0    0.00151
873.5    0.0017
874.0    0.00188
874.5    0.00207
875.0    0.00226
875.5    0.00245
876.0    0.00264
876.5    0.00283
877.0    0.00301
877.5    0.0032
878.0    0.00339
878.5    0.00358
879.0    0.00377
879.5    0.0036
880.0    0.00343
880.5    0.00327
881.0    0.0031
881.5    0.00293
882.0    0.00277
882.5    0.0026
883.0    0.00243
883.5    0.00226
884.0    0.0021
884.5    0.00193
885.0    0.00176
885.5    0.0016
886.0    0.00143
886.5    0.00126
887.0    0.00109
887.5    0.00093
888.0    0.00076
888.5    0.00059
889.0    0.00043
889.5    0.00026
890.0    9e-05
890.5    0.00024
891.0    0.00039
891.5    0.00054
892.0    0.00069
892.5    0.00084
893.0    0.00098
893.5    0.00113
894.0    0.00128
894.5    0.00142
895.0    0.00155
895.5    0.00167
896.0    0.0018
896.5    0.00191
897.0    0.00204
897.5    0.0022
898.0    0.00235
898.5    0.0024
899.0    0.00242
899.5    0.00261
900.0    0.00283
900.5    0.00267
901.0    0.00254
901.5    0.00242
902.0    0.00227
902.5    0.00211
903.0    0.002
903.5    0.00192
904.0    0.00181
904.5    0.00165
905.0    0.0015
905.5    0.00135
906.0    0.00119
906.5    0.00102
907.0    0.00085
907.5    0.0007
908.0    0.00056
908.5    0.00042
909.0    0.00028
909.5    0.00014
910.0    0.0
910.5    0.0
911.0    0.0
911.5    0.0
912.0    0.0
912.5    0.0
913.0    0.0
913.5    0.0
914.0    0.0
914.5    0.0
915.0    0.0
915.5    0.0
916.0    0.0
916.5    0.0
917.0    0.0
917.5    0.0
918.0    0.0
918.5    0.0
919.0    0.0
919.5    0.00055
920.0    0.00109
920.5    0.00165
921.0    0.00221
921.5    0.00273
922.0    0.00327
922.5    0.00385
923.0    0.0044
923.5    0.00493
924.0    0.00546
924.5    0.00598
925.0    0.00652
925.5    0.00709
926.0    0.00767
926.5    0.00823
927.0    0.00881
927.5    0.00916
928.0    0.0094
928.5    0.00986
929.0    0.01028
929.5    0.00996
930.0    0.00945
930.5    0.00897
931.0    0.00852
931.5    0.00805
932.0    0.00725
932.5    0.00692
933.0    0.00691
933.5    0.00664
934.0    0.00584
934.5    0.0055
935.0    0.00619
935.5    0.00635
936.0    0.00604
936.5    0.00606
937.0    0.00585
937.5    0.00608
938.0    0.00609
938.5    0.00608
939.0    0.00672
939.5    0.00733
940.0    0.00709
940.5    0.00658
941.0    0.00638
941.5    0.00641
942.0    0.00619
942.5    0.00551
943.0    0.00498
943.5    0.00513
944.0    0.00476
944.5    0.00444
945.0    0.00483
945.5    0.00477
946.0    0.00435
946.5    0.00432
947.0    0.00445
947.5    0.00426
948.0    0.00379
948.5    0.00378
949.0    0.00407
949.5    0.00397
950.0    0.00375
950.5    0.00412
951.0    0.00472
951.5    0.0048
952.0    0.00438
952.5    0.00436
953.0    0.00481
953.5    0.00514
954.0    0.00532
954.5    0.00537
955.0    0.00555
955.5    0.00559
956.0    0.00563
956.5    0.00578
957.0    0.00597
957.5    0.00655
958.0    0.00674
958.5    0.00667
959.0    0.00662
959.5    0.00641
960.0    0.00656
960.5    0.00668
961.0    0.00673
961.5    0.00678
962.0    0.00655
962.5    0.0062
963.0    0.00632
963.5    0.00643
964.0    0.00627
964.5    0.00618
965.0    0.00619
965.5    0.00626
966.0    0.00606
966.5    0.00576
967.0    0.00576
967.5    0.00604
968.0    0.00606
968.5    0.00585
969.0    0.00582
969.5    0.00579
970.0    0.00564
970.5    0.00551
971.0    0.00547
971.5    0.00532
972.0    0.0052
972.5    0.00509
973.0    0.00493
973.5    0.00479
974.0    0.00468
974.5    0.00454
975.0    0.0044
975.5    0.00432
976.0    0.00421
976.5    0.00415
977.0    0.00416
977.5    0.0041
978.0    0.00397
978.5    0.00384
979.0    0.00374
979.5    0.00362
980.0    0.00354
980.5    0.00345
981.0    0.00342
981.5    0.00333
982.0    0.00321
982.5    0.00308
983.0    0.00297
983.5    0.0029
984.0    0.00281
984.5    0.00269
985.0    0.00256
985.5    0.00247
986.0    0.00237
986.5    0.00227
987.0    0.00215
987.5    0.00204
988.0    0.00193
988.5    0.00183
989.0    0.00172
989.5    0.00182
990.0    0.00192
990.5    0.00203
991.0    0.00214
991.5    0.00224
992.0    0.00235
992.5    0.00245
993.0    0.00256
993.5    0.00267
994.0    0.00277
994.5    0.00288
995.0    0.00299
995.5    0.00309
996.0    0.0032
996.5    0.00331
997.0    0.00341
997.5    0.00352
998.0    0.00362
998.5    0.00373
999.0    0.00383
999.5    0.00377
1000.0    0.0037
1000.5    0.00364
1001.0    0.00358
1001.5    0.0035
1002.0    0.00343
1002.5    0.00337
1003.0    0.00331
1003.5    0.00325
1004.0    0.00318
1004.5    0.00312
1005.0    0.00305
1005.5    0.00299
1006.0    0.00292
1006.5    0.00286
1007.0    0.00279
1007.5    0.00273
1008.0    0.00266
1008.5    0.0026
1009.0    0.00253
1009.5    0.00243
1010.0    0.00234
1010.5    0.00224
1011.0    0.00215
1011.5    0.00205
1012.0    0.00196
1012.5    0.00186
1013.0    0.00176
1013.5    0.00167
1014.0    0.00157
1014.5    0.00147
1015.0    0.00138
1015.5    0.00128
1016.0    0.00119
1016.5    0.00109
1017.0    0.00099
1017.5    0.0009
1018.0    0.0008
1018.5    0.00071
1019.0    0.00061
1019.5    0.00073
1020.0    0.00086
1020.5    0.00099
1021.0    0.00112
1021.5    0.00124
1022.0    0.00137
1022.5    0.0015
1023.0    0.00162
1023.5    0.00175
1024.0    0.00188
1024.5    0.002
1025.0    0.00213
1025.5    0.00226
1026.0    0.00239
1026.5    0.00251
1027.0    0.00264
1027.5    0.00277
1028.0    0.00289
1028.5    0.00302
1029.0    0.00315
1029.5    0.00314
1030.0    0.00314
1030.5    0.00314
1031.0    0.00313
1031.5    0.00313
1032.0    0.00312
1032.5    0.00312
1033.0    0.00311
1033.5    0.00311
1034.0    0.0031
1034.5    0.0031
1035.0    0.00309
1035.5    0.00309
1036.0    0.00309
1036.5    0.00308
1037.0    0.00308
1037.5    0.00307
1038.0    0.00307
1038.5    0.00306
1039.0    0.00306
1039.5    0.00291
1040.0    0.00275
1040.5    0.0026
1041.0    0.00245
1041.5    0.0023
1042.0    0.00215
1042.5    0.002
1043.0    0.00184
1043.5    0.00169
1044.0    0.00154
1044.5    0.00139
1045.0    0.00124
1045.5    0.00108
1046.0    0.00093
1046.5    0.00078
1047.0    0.00063
1047.5    0.00048
1048.0    0.00033
1048.5    0.00017
1049.0    2e-05
1049.5    2e-05
1050.0    2e-05
1050.5    2e-05
1051.0    2e-05
1051.5    2e-05
1052.0    2e-05
1052.5    1e-05
1053.0    1e-05
1053.5    1e-05
1054.0    1e-05
1054.5    1e-05
1055.0    1e-05
1055.5    1e-05
1056.0    1e-05
1056.5    1e-05
1057.0    0.0
1057.5    0.0
1058.0    0.0
1058.5    0.0
1059.0    0.0
1059.5    0.0
1060.0    0.0
1060.5    0.0
1061.0    0.0
1061.5    0.0
1062.0    0.0
1062.5    0.0
1063.0    0.0
1063.5    0.0
1064.0    0.0
1064.5    0.0
1065.0    0.0
1065.5    0.0
1066.0    0.0
1066.5    0.0
1067.0    0.0
1067.5    0.0
1068.0    0.0
1068.5    0.0
1069.0    0.0
1069.5    0.00016
1070.0    0.00032
1070.5    0.00048
1071.0    0.00064
1071.5    0.0008
1072.0    0.00096
1072.5    0.00112
1073.0    0.00128
1073.5    0.00145
1074.0    0.00161
1074.5    0.00176
1075.0    0.00193
1075.5    0.00209
1076.0    0.00225
1076.5    0.00242
1077.0    0.00257
1077.5    0.00273
1078.0    0.00289
1078.5    0.00306
1079.0    0.00322
1079.5    0.00323
1080.0    0.00323
1080.5    0.00323
1081.0    0.00324
1081.5    0.00325
1082.0    0.00326
1082.5    0.00328
1083.0    0.00328
1083.5    0.00327
1084.0    0.00329
1084.5    0.00331
1085.0    0.00331
1085.5    0.00331
1086.0    0.00329
1086.5    0.00329
1087.0    0.00333
1087.5    0.00336
1088.0    0.00337
1088.5    0.00337
1089.0    0.00337
1089.5    0.00319
1090.0    0.00302
1090.5    0.00284
1091.0    0.00269
1091.5    0.00253
1092.0    0.00234
1092.5    0.00216
1093.0    0.002
1093.5    0.00185
1094.0    0.00168
1094.5    0.0015
1095.0    0.00133
1095.5    0.00117
1096.0    0.001
1096.5    0.00084
1097.0    0.00067
1097.5    0.0005
1098.0    0.00033
1098.5    0.00017
1099.0    0.0
1099.5    0.0
1100.0    0.0
