# wavelength    g
380.0    0.00044
380.5    0.00046
381.0    0.00048
381.5    0.00054
382.0    0.0006
382.5    0.0006
383.0    0.0006
383.5    0.0007
384.0    0.00079
384.5    0.00087
385.0    0.00095
385.5    0.00103
386.0    0.00111
386.5    0.00123
387.0    0.00135
387.5    0.00147
388.0    0.00159
388.5    0.00178
389.0    0.00198
389.5    0.00218
390.0    0.00238
390.5    0.00237
391.0    0.00235
391.5    0.00334
392.0    0.00434
392.5    0.00659
393.0    0.00885
393.5    0.01112
394.0    0.01341
394.5    0.01368
395.0    0.01396
395.5    0.04649
396.0    0.07916
396.5    0.11349
397.0    0.14792
397.5    0.18245
398.0    0.2171
398.5    0.21702
399.0    0.21702
399.5    0.22946
400.0    0.24196
400.5    0.24782
401.0    0.25377
401.5    0.2597
402.0    0.2657
402.5    0.26781
403.0    0.26989
403.5    0.27218
404.0    0.27447
404.5    0.27518
405.0    0.27589
405.5    0.27918
406.0    0.28255
406.5    0.28453
407.0    0.28645
407.5    0.29074
408.0    0.29494
408.5    0.29568
409.0    0.29645
409.5    0.29904
410.0    0.30158
410.5    0.30343
411.0    0.3053
411.5    0.30721
412.0    0.30906
412.5    0.31047
413.0    0.31185
413.5    0.31427
414.0    0.31681
414.5    0.31835
415.0    0.31986
415.5    0.32481
416.0    0.3297
416.5    0.33271
417.0    0.33565
417.5    0.3386
418.0    0.3416
418.5    0.34255
419.0    0.34357
419.5    0.34423
420.0    0.34485
420.5    0.34558
421.0    0.3463
421.5    0.3487
422.0    0.35111
422.5    0.35181
423.0    0.35251
423.5    0.35847
424.0    0.36437
424.5    0.36638
425.0    0.36858
425.5    0.37083
426.0    0.37296
426.5    0.37474
427.0    0.37645
427.5    0.38042
428.0    0.38446
428.5    0.38514
429.0    0.38577
429.5    0.3901
430.0    0.39429
430.5    0.39591
431.0    0.39765
431.5    0.39947
432.0    0.40138
432.5    0.40363
433.0    0.40572
433.5    0.40773
434.0    0.40987
434.5    0.41237
435.0    0.41477
435.5    0.4174
436.0    0.42011
436.5    0.42246
437.0    0.4248
437.5    0.42716
438.0    0.42925
438.5    0.43198
439.0    0.43457
439.5    0.43744
440.0    0.44048
440.5    0.44259
441.0    0.44464
441.5    0.44652
442.0    0.44844
442.5    0.45003
443.0    0.4516
443.5    0.45327
444.0    0.45489
444.5    0.45631
445.0    0.45782
445.5    0.45951
446.0    0.46135
446.5    0.46304
447.0    0.4645
447.5    0.46591
448.0    0.46705
448.5    0.46858
449.0    0.47038
449.5    0.47238
450.0    0.4742
450.5    0.47581
451.0    0.47739
451.5    0.47891
452.0    0.48054
452.5    0.48262
453.0    0.48474
453.5    0.48693
454.0    0.48916
454.5    0.49047
455.0    0.49163
455.5    0.49273
456.0    0.49394
456.5    0.49471
457.0    0.49548
457.5    0.4962
458.0    0.49672
458.5    0.49849
459.0    0.50045
459.5    0.50247
460.0    0.50439
460.5    0.50623
461.0    0.50808
461.5    0.50997
462.0    0.51202
462.5    0.51366
463.0    0.51521
463.5    0.51661
464.0    0.5181
464.5    0.51951
465.0    0.52097
465.5    0.52254
466.0    0.52401
466.5    0.52444
467.0    0.5246
467.5    0.52483
468.0    0.52515
468.5    0.52605
469.0    0.52689
469.5    0.52779
470.0    0.52875
470.5    0.53006
471.0    0.53144
471.5    0.53286
472.0    0.53424
472.5    0.53612
473.0    0.538
473.5    0.53977
474.0    0.54143
474.5    0.54329
475.0    0.54536
475.5    0.54744
476.0    0.54952
476.5    0.55017
477.0    0.55076
477.5    0.55135
478.0    0.5519
478.5    0.55239
479.0    0.55278
479.5    0.55304
480.0    0.55354
480.5    0.55507
481.0    0.55654
481.5    0.55802
482.0    0.55956
482.5    0.56039
483.0    0.56129
483.5    0.56213
484.0    0.56298
484.5    0.56307
485.0    0.56311
485.5    0.5632
486.0    0.56328
486.5    0.56493
487.0    0.56658
487.5    0.56799
488.0    0.56959
488.5    0.57107
489.0    0.57277
489.5    0.57477
490.0    0.5767
490.5    0.57769
491.0    0.57862
491.5    0.57949
492.0    0.58037
492.5    0.58019
493.0    0.58008
493.5    0.5799
494.0    0.57973
494.5    0.58022
495.0    0.58076
495.5    0.58136
496.0    0.58179
496.5    0.58399
497.0    0.58612
497.5    0.58838
498.0    0.59058
498.5    0.59205
499.0    0.59328
499.5    0.59452
500.0    0.59582
500.5    0.5967
501.0    0.5977
501.5    0.59871
502.0    0.59965
502.5    0.5999
503.0    0.60016
503.5    0.60035
504.0    0.60072
504.5    0.60175
505.0    0.60291
505.5    0.60387
506.0    0.60491
506.5    0.60653
507.0    0.60828
507.5    0.6099
508.0    0.61165
508.5    0.61281
509.0    0.61397
509.5    0.61513
510.0    0.61623
510.5    0.6161
511.0    0.61604
511.5    0.61579
512.0    0.61548
512.5    0.61604
513.0    0.61667
513.5    0.61742
514.0    0.61799
514.5    0.61959
515.0    0.62119
515.5    0.62279
516.0    0.62439
516.5    0.62523
517.0    0.62594
517.5    0.62672
518.0    0.6275
518.5    0.62846
519.0    0.62955
519.5    0.63064
520.0    0.63187
520.5    0.63349
521.0    0.63531
521.5    0.63713
522.0    0.63888
522.5    0.64029
523.0    0.64163
523.5    0.64296
524.0    0.64423
524.5    0.64493
525.0    0.64557
525.5    0.64628
526.0    0.64705
526.5    0.64723
527.0    0.64741
527.5    0.64772
528.0    0.64783
528.5    0.6482
529.0    0.64857
529.5    0.649
530.0    0.64943
530.5    0.65046
531.0    0.6515
531.5    0.65246
532.0    0.65356
532.5    0.65459
533.0    0.65569
533.5    0.65679
534.0    0.6579
534.5    0.65922
535.0    0.66062
535.5    0.66195
536.0    0.66329
536.5    0.66277
537.0    0.66232
537.5    0.6618
538.0    0.66122
538.5    0.65961
539.0    0.65812
539.5    0.65651
540.0    0.65496
540.5    0.65642
541.0    0.65767
541.5    0.65907
542.0    0.66045
542.5    0.66485
543.0    0.66925
543.5    0.67344
544.0    0.67785
544.5    0.6556
545.0    0.63328
545.5    0.61088
546.0    0.58855
546.5    0.50518
547.0    0.4219
547.5    0.33838
548.0    0.25488
548.5    0.20347
549.0    0.152
549.5    0.10052
550.0    0.049
550.5    0.0395
551.0    0.03
551.5    0.02049
552.0    0.01099
552.5    0.00887
553.0    0.00676
553.5    0.00464
554.0    0.00253
554.5    0.00213
555.0    0.00174
555.5    0.00134
556.0    0.00095
556.5    0.00085
557.0    0.00075
557.5    0.00065
558.0    0.00055
558.5    0.00051
559.0    0.00048
559.5    0.00044
560.0    0.00041
560.5    0.00039
561.0    0.00037
561.5    0.00035
562.0    0.00032
562.5    0.00031
563.0    0.0003
563.5    0.00028
564.0    0.00027
564.5    0.00026
565.0    0.00025
565.5    0.00025
566.0    0.00024
566.5    0.00023
567.0    0.00022
567.5    0.00022
568.0    0.00021
568.5    0.00021
569.0    0.00021
569.5    0.0002
570.0    0.0002
570.5    0.0002
571.0    0.00019
571.5    0.00019
572.0    0.00018
572.5    0.00018
573.0    0.00018
573.5    0.00018
574.0    0.00017
574.5    0.00017
575.0    0.00017
575.5    0.00017
576.0    0.00016
576.5    0.00016
577.0    0.00016
577.5    0.00016
578.0    0.00016
578.5    0.00015
579.0    0.00015
579.5    0.00015
580.0    0.00015
580.5    0.00015
581.0    0.00014
581.5    0.00014
582.0    0.00014
582.5    0.00014
583.0    0.00014
583.5    0.00014
584.0    0.00014
584.5    0.00014
585.0    0.00013
585.5    0.00013
586.0    0.00013
586.5    0.00013
587.0    0.00013
587.5    0.00013
588.0    0.00013
588.5    0.00012
589.0    0.00012
589.5    0.00012
590.0    0.00012
590.5    0.00012
591.0    0.00012
591.5    0.00012
592.0    0.00012
592.5    0.00012
593.0    0.00012
593.5    0.00011
594.0    0.00011
594.5    0.00011
595.0    0.00011
595.5    0.00011
596.0    0.00011
596.5    0.00011
597.0    0.00011
597.5    0.00011
598.0    0.00011
598.5    0.00011
599.0    0.00011
599.5    0.0001
600.0    0.0001
600.5    0.0001
601.0    0.0001
601.5    9e-05
602.0    9e-05
602.5    9e-05
603.0    8e-05
603.5    8e-05
604.0    7e-05
604.5    7e-05
605.0    7e-05
605.5    6e-05
606.0    6e-05
606.5    6e-05
607.0    5e-05
607.5    5e-05
608.0    5e-05
608.5    4e-05
609.0    4e-05
609.5    3e-05
610.0    3e-05
610.5    3e-05
611.0    3e-05
611.5    3e-05
612.0    3e-05
612.5    3e-05
613.0    3e-05
613.5    3e-05
614.0    3e-05
614.5    3e-05
615.0    3e-05
615.5    3e-05
616.0    3e-05
616.5    3e-05
617.0    3e-05
617.5    3e-05
618.0    3e-05
618.5    3e-05
619.0    3e-05
619.5    3e-05
620.0    3e-05
620.5    3e-05
621.0    3e-05
621.5    3e-05
622.0    3e-05
622.5    3e-05
623.0    3e-05
623.5    3e-05
624.0    3e-05
624.5    3e-05
625.0    3e-05
625.5    3e-05
626.0    3e-05
626.5    3e-05
627.0    3e-05
627.5    3e-05
628.0    2e-05
628.5    2e-05
629.0    2e-05
629.5    2e-05
630.0    2e-05
630.5    2e-05
631.0    2e-05
631.5    2e-05
632.0    2e-05
632.5    2e-05
633.0    2e-05
633.5    2e-05
634.0    2e-05
634.5    2e-05
635.0    2e-05
635.5    2e-05
636.0    2e-05
636.5    2e-05
637.0    2e-05
637.5    2e-05
638.0    2e-05
638.5    2e-05
639.0    2e-05
639.5    2e-05
640.0    2e-05
640.5    2e-05
641.0    2e-05
641.5    2e-05
642.0    2e-05
642.5    2e-05
643.0    2e-05
643.5    2e-05
644.0    2e-05
644.5    2e-05
645.0    2e-05
645.5    2e-05
646.0    2e-05
646.5    2e-05
647.0    2e-05
647.5    2e-05
648.0    2e-05
648.5    2e-05
649.0    2e-05
649.5    2e-05
650.0    2e-05
650.5    2e-05
651.0    2e-05
651.5    2e-05
652.0    2e-05
652.5    2e-05
653.0    2e-05
653.5    2e-05
654.0    2e-05
654.5    2e-05
655.0    2e-05
655.5    2e-05
656.0    2e-05
656.5    2e-05
657.0    2e-05
657.5    2e-05
658.0    2e-05
658.5    2e-05
659.0    3e-05
659.5    3e-05
660.0    3e-05
660.5    3e-05
661.0    3e-05
661.5    2e-05
662.0    2e-05
662.5    2e-05
663.0    2e-05
663.5    2e-05
664.0    2e-05
664.5    2e-05
665.0    2e-05
665.5    2e-05
666.0    2e-05
666.5    2e-05
667.0    2e-05
667.5    2e-05
668.0    2e-05
668.5    2e-05
669.0    2e-05
669.5    2e-05
670.0    2e-05
670.5    2e-05
671.0    2e-05
671.5    2e-05
672.0    2e-05
672.5    2e-05
673.0    2e-05
673.5    2e-05
674.0    2e-05
674.5    2e-05
675.0    2e-05
675.5    3e-05
676.0    3e-05
676.5    3e-05
677.0    3e-05
677.5    3e-05
678.0    3e-05
678.5    3e-05
679.0    3e-05
679.5    3e-05
680.0    3e-05
680.5    3e-05
681.0    4e-05
681.5    5e-05
682.0    5e-05
682.5    6e-05
683.0    6e-05
683.5    7e-05
684.0    7e-05
684.5    8e-05
685.0    9e-05
685.5    9e-05
686.0    0.0001
686.5    0.0001
687.0    9e-05
687.5    9e-05
688.0    0.0001
688.5    0.00011
689.0    0.00012
689.5    0.00012
690.0    0.00013
690.5    0.00013
691.0    0.00013
691.5    0.00012
692.0    0.00012
692.5    0.00012
693.0    0.00011
693.5    0.00011
694.0    0.0001
694.5    0.0001
695.0    9e-05
695.5    9e-05
696.0    8e-05
696.5    7e-05
697.0    7e-05
697.5    6e-05
698.0    6e-05
698.5    5e-05
699.0    5e-05
699.5    4e-05
700.0    4e-05
700.5    4e-05
701.0    4e-05
701.5    4e-05
702.0    4e-05
702.5    4e-05
703.0    4e-05
703.5    4e-05
704.0    4e-05
704.5    4e-05
705.0    5e-05
705.5    5e-05
706.0    5e-05
706.5    5e-05
707.0    5e-05
707.5    5e-05
708.0    5e-05
708.5    5e-05
709.0    5e-05
709.5    5e-05
710.0    5e-05
710.5    5e-05
711.0    5e-05
711.5    6e-05
712.0    6e-05
712.5    6e-05
713.0    6e-05
713.5    6e-05
714.0    6e-05
714.5    6e-05
715.0    6e-05
715.5    6e-05
716.0    6e-05
716.5    6e-05
717.0    6e-05
717.5    6e-05
718.0    6e-05
718.5    6e-05
719.0    6e-05
719.5    6e-05
720.0    6e-05
720.5    6e-05
721.0    7e-05
721.5    7e-05
722.0    8e-05
722.5    8e-05
723.0    8e-05
723.5    8e-05
724.0    8e-05
724.5    9e-05
725.0    9e-05
725.5    9e-05
726.0    0.0001
726.5    0.0001
727.0    0.0001
727.5    0.00011
728.0    0.00011
728.5    0.00011
729.0    0.00012
729.5    0.00012
730.0    0.00012
730.5    0.00012
731.0    0.00012
731.5    0.00012
732.0    0.00012
732.5    0.00011
733.0    0.00011
733.5    0.00011
734.0    0.00011
734.5    0.00011
735.0    0.0001
735.5    0.0001
736.0    0.0001
736.5    0.0001
737.0    0.0001
737.5    9e-05
738.0    9e-05
738.5    9e-05
739.0    9e-05
739.5    8e-05
740.0    8e-05
740.5    8e-05
741.0    8e-05
741.5    8e-05
742.0    8e-05
742.5    8e-05
743.0    9e-05
743.5    9e-05
744.0    9e-05
744.5    9e-05
745.0    9e-05
745.5    9e-05
746.0    9e-05
746.5    9e-05
747.0    9e-05
747.5    9e-05
748.0    9e-05
748.5    9e-05
749.0    9e-05
749.5    9e-05
750.0    9e-05
750.5    0.0001
751.0    0.0001
751.5    0.00011
752.0    0.00011
752.5    0.00011
753.0    0.00012
753.5    0.00012
754.0    0.00013
754.5    0.00013
755.0    0.00013
755.5    0.00014
756.0    0.00014
756.5    0.00015
757.0    0.00015
757.5    0.00016
758.0    0.00016
758.5    0.00016
759.0    0.00016
759.5    0.00013
760.0    8e-05
760.5    6e-05
761.0    6e-05
761.5    0.0001
762.0    0.00013
762.5    0.00013
763.0    0.00011
763.5    0.00012
764.0    0.00013
764.5    0.00015
765.0    0.00016
765.5    0.00018
766.0    0.0002
766.5    0.00021
767.0    0.00023
767.5    0.00024
768.0    0.00025
768.5    0.00026
769.0    0.00027
769.5    0.00027
770.0    0.00028
770.5    0.00029
771.0    0.0003
771.5    0.0003
772.0    0.00031
772.5    0.00032
773.0    0.00033
773.5    0.00033
774.0    0.00034
774.5    0.00035
775.0    0.00036
775.5    0.00036
776.0    0.00037
776.5    0.00038
777.0    0.00039
777.5    0.00039
778.0    0.0004
778.5    0.00041
779.0    0.00041
779.5    0.00042
780.0    0.00043
780.5    0.00044
781.0    0.00045
781.5    0.00046
782.0    0.00048
782.5    0.00049
783.0    0.0005
783.5    0.00051
784.0    0.00052
784.5    0.00054
785.0    0.00055
785.5    0.00056
786.0    0.00057
786.5    0.00058
787.0    0.00059
787.5    0.00061
788.0    0.00062
788.5    0.00063
789.0    0.00064
789.5    0.00065
790.0    0.00066
790.5    0.00068
791.0    0.00069
791.5    0.00071
792.0    0.00072
792.5    0.00074
793.0    0.00075
793.5    0.00077
794.0    0.00079
794.5    0.0008
795.0    0.00082
795.5    0.00083
796.0    0.00085
796.5    0.00086
797.0    0.00088
797.5    0.0009
798.0    0.00091
798.5    0.00093
799.0    0.00094
799.5    0.00096
800.0    0.00097
800.5    0.00097
801.0    0.00097
801.5    0.00097
802.0    0.00097
802.5    0.00097
803.0    0.00097
803.5    0.00097
804.0    0.00097
804.5    0.00097
805.0    0.00097
805.5    0.00097
806.0    0.00097
806.5    0.00097
807.0    0.00097
807.5    0.00096
808.0    0.00096
808.5    0.00096
809.0    0.00096
809.5    0.00096
810.0    0.00096
810.5    0.00095
811.0    0.00094
811.5    0.00093
812.0    0.00091
812.5    0.0009
813.0    0.00089
813.5    0.00087
814.0    0.00085
814.5    0.00084
815.0    0.00083
815.5    0.00081
816.0    0.00079
816.5    0.00078
817.0    0.00078
817.5    0.00077
818.0    0.00075
818.5    0.00075
819.0    0.00075
819.5    0.00074
820.0    0.00074
820.5    0.00075
821.0    0.00075
821.5    0.00075
822.0    0.00074
822.5    0.0007
823.0    0.00067
823.5    0.00068
824.0    0.0007
824.5    0.00071
825.0    0.00071
825.5    0.0007
826.0    0.00069
826.5    0.00069
827.0    0.00069
827.5    0.00067
828.0    0.00066
828.5    0.00066
829.0    0.00065
829.5    0.00065
830.0    0.00065
830.5    0.00064
831.0    0.00063
831.5    0.00062
832.0    0.0006
832.5    0.00059
833.0    0.00058
833.5    0.00057
834.0    0.00055
834.5    0.00054
835.0    0.00053
835.5    0.00052
836.0    0.0005
836.5    0.00049
837.0    0.00048
837.5    0.00047
838.0    0.00045
838.5    0.00044
839.0    0.00043
839.5    0.00042
840.0    0.00042
840.5    0.00042
841.0    0.00041
841.5    0.00041
842.0    0.00041
842.5    0.0004
843.0    0.0004
843.5    0.0004
844.0    0.00039
844.5    0.00039
845.0    0.00039
845.5    0.00039
846.0    0.00038
846.5    0.00038
847.0    0.00038
847.5    0.00037
848.0    0.00037
848.5    0.00037
849.0    0.00036
849.5    0.00036
850.0    0.00036
850.5    0.00035
851.0    0.00035
851.5    0.00034
852.0    0.00033
852.5    0.00033
853.0    0.00032
853.5    0.00032
854.0    0.00031
854.5    0.0003
855.0    0.0003
855.5    0.00029
856.0    0.00029
856.5    0.00028
857.0    0.00027
857.5    0.00027
858.0    0.00026
858.5    0.00026
859.0    0.00025
859.5    0.00024
860.0    0.00024
860.5    0.00024
861.0    0.00024
861.5    0.00024
862.0    0.00024
862.5    0.00024
863.0    0.00025
863.5    0.00025
864.0    0.00025
864.5    0.00025
865.0    0.00025
865.5    0.00025
866.0    0.00025
866.5    0.00025
867.0    0.00025
867.5    0.00025
868.0    0.00026
868.5    0.00026
869.0    0.00026
869.5    0.00026
870.0    0.00025
870.5    0.00025
871.0    0.00025
871.5    0.00025
872.0    0.00025
872.5    0.00025
873.0    0.00024
873.5    0.00024
874.0    0.00024
874.5    0.00024
875.0    0.00024
875.5    0.00024
876.0    0.00023
876.5    0.00023
877.0    0.00023
877.5    0.00023
878.0    0.00023
878.5    0.00023
879.0    0.00022
879.5    0.00022
880.0    0.00022
880.5    0.00021
881.0    0.00021
881.5    0.0002
882.0    0.0002
882.5    0.0002
883.0    0.00019
883.5    0.00019
884.0    0.00018
884.5    0.00018
885.0    0.00018
885.5    0.00017
886.0    0.00017
886.5    0.00016
887.0    0.00016
887.5    0.00016
888.0    0.00015
888.5    0.00015
889.0    0.00014
889.5    0.00014
890.0    0.00014
890.5    0.00014
891.0    0.00014
891.5    0.00014
892.0    0.00014
892.5    0.00014
893.0    0.00014
893.5    0.00013
894.0    0.00013
894.5    0.00013
895.0    0.00013
895.5    0.00013
896.0    0.00013
896.5    0.00012
897.0    0.00012
897.5    0.00012
898.0    0.00012
898.5    0.00012
899.0    0.00011
899.5    0.00011
900.0    0.00011
900.5    0.00011
901.0    0.00011
901.5    0.00011
902.0    0.00011
902.5    0.00011
903.0    0.00011
903.5    0.00011
904.0    0.00011
904.5    0.00011
905.0    0.00011
905.5    0.00011
906.0    0.00011
906.5    0.0001
907.0    0.0001
907.5    0.0001
908.0    0.0001
908.5    0.0001
909.0    0.0001
909.5    0.0001
910.0    9e-05
910.5    9e-05
911.0    9e-05
911.5    9e-05
912.0    9e-05
912.5    9e-05
913.0    9e-05
913.5    9e-05
914.0    9e-05
914.5    9e-05
915.0    9e-05
915.5    8e-05
916.0    8e-05
916.5    9e-05
917.0    9e-05
917.5    8e-05
918.0    8e-05
918.5    8e-05
919.0    9e-05
919.5    9e-05
920.0    9e-05
920.5    9e-05
921.0    9e-05
921.5    9e-05
922.0    9e-05
922.5    9e-05
923.0    9e-05
923.5    9e-05
924.0    9e-05
924.5    9e-05
925.0    9e-05
925.5    9e-05
926.0    9e-05
926.5    9e-05
927.0    9e-05
927.5    9e-05
928.0    9e-05
928.5    9e-05
929.0    9e-05
929.5    9e-05
930.0    8e-05
930.5    8e-05
931.0    7e-05
931.5    7e-05
932.0    6e-05
932.5    6e-05
933.0    6e-05
933.5    6e-05
934.0    5e-05
934.5    5e-05
935.0    5e-05
935.5    5e-05
936.0    5e-05
936.5    5e-05
937.0    5e-05
937.5    5e-05
938.0    5e-05
938.5    5e-05
939.0    5e-05
939.5    6e-05
940.0    6e-05
940.5    6e-05
941.0    6e-05
941.5    6e-05
942.0    6e-05
942.5    5e-05
943.0    5e-05
943.5    5e-05
944.0    5e-05
944.5    5e-05
945.0    6e-05
945.5    6e-05
946.0    5e-05
946.5    6e-05
947.0    6e-05
947.5    6e-05
948.0    5e-05
948.5    6e-05
949.0    6e-05
949.5    6e-05
950.0    6e-05
950.5    6e-05
951.0    6e-05
951.5    6e-05
952.0    6e-05
952.5    5e-05
953.0    6e-05
953.5    6e-05
954.0    6e-05
954.5    6e-05
955.0    6e-05
955.5    6e-05
956.0    6e-05
956.5    6e-05
957.0    6e-05
957.5    6e-05
958.0    6e-05
958.5    6e-05
959.0    6e-05
959.5    6e-05
960.0    6e-05
960.5    6e-05
961.0    6e-05
961.5    6e-05
962.0    6e-05
962.5    6e-05
963.0    6e-05
963.5    6e-05
964.0    6e-05
964.5    6e-05
965.0    6e-05
965.5    7e-05
966.0    6e-05
966.5    6e-05
967.0    6e-05
967.5    7e-05
968.0    7e-05
968.5    7e-05
969.0    7e-05
969.5    7e-05
970.0    7e-05
970.5    7e-05
971.0    7e-05
971.5    7e-05
972.0    7e-05
972.5    7e-05
973.0    7e-05
973.5    7e-05
974.0    7e-05
974.5    7e-05
975.0    7e-05
975.5    7e-05
976.0    7e-05
976.5    7e-05
977.0    7e-05
977.5    7e-05
978.0    7e-05
978.5    7e-05
979.0    7e-05
979.5    7e-05
980.0    7e-05
980.5    7e-05
981.0    7e-05
981.5    7e-05
982.0    7e-05
982.5    7e-05
983.0    7e-05
983.5    7e-05
984.0    7e-05
984.5    7e-05
985.0    7e-05
985.5    7e-05
986.0    7e-05
986.5    8e-05
987.0    8e-05
987.5    8e-05
988.0    8e-05
988.5    8e-05
989.0    8e-05
989.5    8e-05
990.0    8e-05
990.5    8e-05
991.0    8e-05
991.5    8e-05
992.0    8e-05
992.5    8e-05
993.0    8e-05
993.5    8e-05
994.0    8e-05
994.5    8e-05
995.0    7e-05
995.5    7e-05
996.0    7e-05
996.5    7e-05
997.0    7e-05
997.5    7e-05
998.0    7e-05
998.5    7e-05
999.0    7e-05
999.5    7e-05
1000.0    7e-05
1000.5    7e-05
1001.0    7e-05
1001.5    7e-05
1002.0    7e-05
1002.5    7e-05
1003.0    7e-05
1003.5    7e-05
1004.0    7e-05
1004.5    7e-05
1005.0    7e-05
1005.5    7e-05
1006.0    7e-05
1006.5    7e-05
1007.0    7e-05
1007.5    7e-05
1008.0    7e-05
1008.5    7e-05
1009.0    7e-05
1009.5    7e-05
1010.0    7e-05
1010.5    7e-05
1011.0    8e-05
1011.5    8e-05
1012.0    8e-05
1012.5    9e-05
1013.0    9e-05
1013.5    9e-05
1014.0    9e-05
1014.5    0.0001
1015.0    0.0001
1015.5    0.0001
1016.0    0.0001
1016.5    0.00011
1017.0    0.00011
1017.5    0.00011
1018.0    0.00012
1018.5    0.00012
1019.0    0.00012
1019.5    0.00012
1020.0    0.00012
1020.5    0.00012
1021.0    0.00012
1021.5    0.00011
1022.0    0.00011
1022.5    0.00011
1023.0    0.00011
1023.5    0.00011
1024.0    0.00011
1024.5    0.0001
1025.0    0.0001
1025.5    0.0001
1026.0    0.0001
1026.5    0.0001
1027.0    0.0001
1027.5    9e-05
1028.0    9e-05
1028.5    9e-05
1029.0    9e-05
1029.5    9e-05
1030.0    9e-05
1030.5    9e-05
1031.0    8e-05
1031.5    8e-05
1032.0    8e-05
1032.5    8e-05
1033.0    8e-05
1033.5    8e-05
1034.0    8e-05
1034.5    8e-05
1035.0    8e-05
1035.5    7e-05
1036.0    7e-05
1036.5    7e-05
1037.0    7e-05
1037.5    7e-05
1038.0    7e-05
1038.5    7e-05
1039.0    7e-05
1039.5    7e-05
1040.0    7e-05
1040.5    7e-05
1041.0    7e-05
1041.5    7e-05
1042.0    7e-05
1042.5    7e-05
1043.0    7e-05
1043.5    7e-05
1044.0    7e-05
1044.5    7e-05
1045.0    7e-05
1045.5    7e-05
1046.0    7e-05
1046.5    7e-05
1047.0    8e-05
1047.5    8e-05
1048.0    8e-05
1048.5    8e-05
1049.0    8e-05
1049.5    8e-05
1050.0    8e-05
1050.5    7e-05
1051.0    7e-05
1051.5    7e-05
1052.0    7e-05
1052.5    7e-05
1053.0    7e-05
1053.5    7e-05
1054.0    7e-05
1054.5    7e-05
1055.0    6e-05
1055.5    6e-05
1056.0    6e-05
1056.5    6e-05
1057.0    6e-05
1057.5    6e-05
1058.0    6e-05
1058.5    6e-05
1059.0    6e-05
1059.5    6e-05
1060.0    6e-05
1060.5    6e-05
1061.0    6e-05
1061.5    6e-05
1062.0    6e-05
1062.5    6e-05
1063.0    6e-05
1063.5    6e-05
1064.0    6e-05
1064.5    6e-05
1065.0    6e-05
1065.5    6e-05
1066.0    6e-05
1066.5    6e-05
1067.0    6e-05
1067.5    6e-05
1068.0    6e-05
1068.5    6e-05
1069.0    6e-05
1069.5    6e-05
1070.0    6e-05
1070.5    6e-05
1071.0    6e-05
1071.5    7e-05
1072.0    7e-05
1072.5    7e-05
1073.0    7e-05
1073.5    7e-05
1074.0    7e-05
1074.5    7e-05
1075.0    7e-05
1075.5    8e-05
1076.0    8e-05
1076.5    8e-05
1077.0    8e-05
1077.5    8e-05
1078.0    8e-05
1078.5    8e-05
1079.0    8e-05
1079.5    8e-05
1080.0    8e-05
1080.5    8e-05
1081.0    8e-05
1081.5    8e-05
1082.0    8e-05
1082.5    8e-05
1083.0    8e-05
1083.5    8e-05
1084.0    8e-05
1084.5    8e-05
1085.0    8e-05
1085.5    8e-05
1086.0    8e-05
1086.5    7e-05
1087.0    7e-05
1087.5    7e-05
1088.0    7e-05
1088.5    7e-05
1089.0    7e-05
1089.5    7e-05
1090.0    7e-05
1090.5    7e-05
1091.0    7e-05
1091.5    7e-05
1092.0    7e-05
1092.5    7e-05
1093.0    7e-05
1093.5    7e-05
1094.0    7e-05
1094.5    7e-05
1095.0    7e-05
1095.5    7e-05
1096.0    7e-05
1096.5    7e-05
1097.0    7e-05
1097.5    7e-05
1098.0    7e-05
1098.5    7e-05
1099.0    7e-05
1099.5    3e-05
1100.0    0.0
